Date,2025/05/16,
Time,18:00:00,
Memo,EKO 711,
Sensor,MS-711,
Exposure Time(msec),5000,
Sensor Temp.(deg),24.6,
Power(V),5.9,
Wavelength(nm),Irradiance(W/m2/um),
300.00,0.00,
301.00,0.00,
302.00,0.00,
303.00,0.00,
304.00,0.00,
305.00,0.01,
306.00,0.01,
307.00,0.00,
308.00,0.01,
309.00,0.01,
310.00,0.01,
311.00,0.01,
312.00,0.01,
313.00,0.01,
314.00,0.02,
315.00,0.02,
316.00,0.01,
317.00,0.02,
318.00,0.02,
319.00,0.02,
320.00,0.02,
321.00,0.02,
322.00,0.02,
323.00,0.03,
324.00,0.03,
325.00,0.04,
326.00,0.05,
327.00,0.05,
328.00,0.06,
329.00,0.07,
330.00,0.07,
331.00,0.08,
332.00,0.08,
333.00,0.09,
334.00,0.09,
335.00,0.09,
336.00,0.10,
337.00,0.10,
338.00,0.11,
339.00,0.12,
340.00,0.12,
341.00,0.12,
342.00,0.12,
343.00,0.12,
344.00,0.12,
345.00,0.12,
346.00,0.12,
347.00,0.12,
348.00,0.12,
349.00,0.12,
350.00,0.13,
351.00,0.13,
352.00,0.13,
353.00,0.13,
354.00,0.14,
355.00,0.13,
356.00,0.13,
357.00,0.13,
358.00,0.13,
359.00,0.12,
360.00,0.12,
361.00,0.13,
362.00,0.13,
363.00,0.13,
364.00,0.14,
365.00,0.15,
366.00,0.15,
367.00,0.15,
368.00,0.16,
369.00,0.15,
370.00,0.15,
371.00,0.15,
372.00,0.14,
373.00,0.14,
374.00,0.14,
375.00,0.14,
376.00,0.15,
377.00,0.15,
378.00,0.15,
379.00,0.16,
380.00,0.15,
381.00,0.14,
382.00,0.14,
383.00,0.13,
384.00,0.12,
385.00,0.13,
386.00,0.13,
387.00,0.13,
388.00,0.14,
389.00,0.15,
390.00,0.15,
391.00,0.14,
392.00,0.14,
393.00,0.14,
394.00,0.13,
395.00,0.14,
396.00,0.14,
397.00,0.16,
398.00,0.17,
399.00,0.19,
400.00,0.20,
401.00,0.21,
402.00,0.22,
403.00,0.22,
404.00,0.22,
405.00,0.21,
406.00,0.21,
407.00,0.21,
408.00,0.21,
409.00,0.21,
410.00,0.21,
411.00,0.22,
412.00,0.22,
413.00,0.22,
414.00,0.22,
415.00,0.22,
416.00,0.22,
417.00,0.22,
418.00,0.22,
419.00,0.22,
420.00,0.22,
421.00,0.22,
422.00,0.22,
423.00,0.22,
424.00,0.21,
425.00,0.21,
426.00,0.21,
427.00,0.21,
428.00,0.21,
429.00,0.21,
430.00,0.20,
431.00,0.21,
432.00,0.21,
433.00,0.21,
434.00,0.21,
435.00,0.22,
436.00,0.22,
437.00,0.22,
438.00,0.22,
439.00,0.23,
440.00,0.23,
441.00,0.24,
442.00,0.24,
443.00,0.24,
444.00,0.24,
445.00,0.24,
446.00,0.24,
447.00,0.24,
448.00,0.25,
449.00,0.24,
450.00,0.25,
451.00,0.25,
452.00,0.25,
453.00,0.26,
454.00,0.26,
455.00,0.26,
456.00,0.26,
457.00,0.25,
458.00,0.25,
459.00,0.25,
460.00,0.25,
461.00,0.25,
462.00,0.25,
463.00,0.25,
464.00,0.24,
465.00,0.25,
466.00,0.25,
467.00,0.24,
468.00,0.23,
469.00,0.24,
470.00,0.23,
471.00,0.23,
472.00,0.23,
473.00,0.24,
474.00,0.23,
475.00,0.24,
476.00,0.24,
477.00,0.23,
478.00,0.23,
479.00,0.23,
480.00,0.21,
481.00,0.21,
482.00,0.21,
483.00,0.22,
484.00,0.22,
485.00,0.22,
486.00,0.21,
487.00,0.21,
488.00,0.20,
489.00,0.19,
490.00,0.20,
491.00,0.20,
492.00,0.20,
493.00,0.20,
494.00,0.21,
495.00,0.20,
496.00,0.20,
497.00,0.20,
498.00,0.20,
499.00,0.20,
500.00,0.20,
501.00,0.19,
502.00,0.19,
503.00,0.18,
504.00,0.17,
505.00,0.16,
506.00,0.17,
507.00,0.16,
508.00,0.15,
509.00,0.16,
510.00,0.17,
511.00,0.16,
512.00,0.18,
513.00,0.18,
514.00,0.16,
515.00,0.16,
516.00,0.16,
517.00,0.15,
518.00,0.15,
519.00,0.16,
520.00,0.15,
521.00,0.15,
522.00,0.15,
523.00,0.14,
524.00,0.13,
525.00,0.13,
526.00,0.13,
527.00,0.13,
528.00,0.13,
529.00,0.13,
530.00,0.13,
531.00,0.13,
532.00,0.13,
533.00,0.13,
534.00,0.14,
535.00,0.14,
536.00,0.14,
537.00,0.13,
538.00,0.12,
539.00,0.12,
540.00,0.11,
541.00,0.10,
542.00,0.09,
543.00,0.10,
544.00,0.09,
545.00,0.08,
546.00,0.09,
547.00,0.09,
548.00,0.08,
549.00,0.09,
550.00,0.10,
551.00,0.09,
552.00,0.10,
553.00,0.10,
554.00,0.09,
555.00,0.10,
556.00,0.10,
557.00,0.10,
558.00,0.10,
559.00,0.09,
560.00,0.08,
561.00,0.08,
562.00,0.07,
563.00,0.07,
564.00,0.08,
565.00,0.08,
566.00,0.07,
567.00,0.08,
568.00,0.07,
569.00,0.06,
570.00,0.07,
571.00,0.07,
572.00,0.06,
573.00,0.07,
574.00,0.07,
575.00,0.07,
576.00,0.07,
577.00,0.08,
578.00,0.07,
579.00,0.07,
580.00,0.07,
581.00,0.06,
582.00,0.06,
583.00,0.07,
584.00,0.08,
585.00,0.07,
586.00,0.08,
587.00,0.09,
588.00,0.07,
589.00,0.07,
590.00,0.07,
591.00,0.06,
592.00,0.06,
593.00,0.08,
594.00,0.07,
595.00,0.06,
596.00,0.08,
597.00,0.07,
598.00,0.06,
599.00,0.06,
600.00,0.06,
601.00,0.04,
602.00,0.05,
603.00,0.05,
604.00,0.05,
605.00,0.05,
606.00,0.06,
607.00,0.07,
608.00,0.08,
609.00,0.07,
610.00,0.07,
611.00,0.08,
612.00,0.06,
613.00,0.06,
614.00,0.07,
615.00,0.06,
616.00,0.06,
617.00,0.08,
618.00,0.07,
619.00,0.07,
620.00,0.08,
621.00,0.07,
622.00,0.06,
623.00,0.07,
624.00,0.07,
625.00,0.06,
626.00,0.08,
627.00,0.08,
628.00,0.06,
629.00,0.06,
630.00,0.07,
631.00,0.05,
632.00,0.05,
633.00,0.07,
634.00,0.06,
635.00,0.07,
636.00,0.09,
637.00,0.08,
638.00,0.07,
639.00,0.08,
640.00,0.08,
641.00,0.06,
642.00,0.07,
643.00,0.07,
644.00,0.07,
645.00,0.08,
646.00,0.08,
647.00,0.08,
648.00,0.08,
649.00,0.08,
650.00,0.08,
651.00,0.09,
652.00,0.09,
653.00,0.09,
654.00,0.10,
655.00,0.09,
656.00,0.08,
657.00,0.09,
658.00,0.09,
659.00,0.09,
660.00,0.11,
661.00,0.10,
662.00,0.10,
663.00,0.10,
664.00,0.09,
665.00,0.09,
666.00,0.11,
667.00,0.11,
668.00,0.10,
669.00,0.12,
670.00,0.12,
671.00,0.11,
672.00,0.11,
673.00,0.12,
674.00,0.10,
675.00,0.11,
676.00,0.12,
677.00,0.11,
678.00,0.11,
679.00,0.12,
680.00,0.11,
681.00,0.10,
682.00,0.11,
683.00,0.11,
684.00,0.10,
685.00,0.11,
686.00,0.10,
687.00,0.10,
688.00,0.09,
689.00,0.09,
690.00,0.09,
691.00,0.09,
692.00,0.09,
693.00,0.09,
694.00,0.10,
695.00,0.10,
696.00,0.11,
697.00,0.11,
698.00,0.11,
699.00,0.11,
700.00,0.10,
701.00,0.09,
702.00,0.08,
703.00,0.10,
704.00,0.09,
705.00,0.10,
706.00,0.12,
707.00,0.11,
708.00,0.11,
709.00,0.14,
710.00,0.14,
711.00,0.13,
712.00,0.14,
713.00,0.14,
714.00,0.11,
715.00,0.12,
716.00,0.14,
717.00,0.12,
718.00,0.13,
719.00,0.14,
720.00,0.11,
721.00,0.10,
722.00,0.12,
723.00,0.09,
724.00,0.09,
725.00,0.10,
726.00,0.09,
727.00,0.07,
728.00,0.08,
729.00,0.08,
730.00,0.09,
731.00,0.11,
732.00,0.14,
733.00,0.16,
734.00,0.16,
735.00,0.14,
736.00,0.14,
737.00,0.13,
738.00,0.12,
739.00,0.12,
740.00,0.11,
741.00,0.11,
742.00,0.12,
743.00,0.12,
744.00,0.12,
745.00,0.15,
746.00,0.15,
747.00,0.13,
748.00,0.15,
749.00,0.16,
750.00,0.11,
751.00,0.12,
752.00,0.14,
753.00,0.11,
754.00,0.11,
755.00,0.15,
756.00,0.11,
757.00,0.12,
758.00,0.15,
759.00,0.10,
760.00,0.07,
761.00,0.09,
762.00,0.03,
763.00,0.02,
764.00,0.06,
765.00,0.05,
766.00,0.05,
767.00,0.09,
768.00,0.10,
769.00,0.08,
770.00,0.11,
771.00,0.11,
772.00,0.07,
773.00,0.06,
774.00,0.07,
775.00,0.06,
776.00,0.09,
777.00,0.12,
778.00,0.14,
779.00,0.15,
780.00,0.15,
781.00,0.15,
782.00,0.13,
783.00,0.10,
784.00,0.12,
785.00,0.12,
786.00,0.09,
787.00,0.12,
788.00,0.14,
789.00,0.10,
790.00,0.12,
791.00,0.14,
792.00,0.09,
793.00,0.09,
794.00,0.13,
795.00,0.07,
796.00,0.08,
797.00,0.11,
798.00,0.08,
799.00,0.06,
800.00,0.08,
801.00,0.04,
802.00,0.03,
803.00,0.07,
804.00,0.06,
805.00,0.06,
806.00,0.09,
807.00,0.09,
808.00,0.06,
809.00,0.08,
810.00,0.10,
811.00,0.08,
812.00,0.09,
813.00,0.10,
814.00,0.08,
815.00,0.08,
816.00,0.07,
817.00,0.06,
818.00,0.08,
819.00,0.09,
820.00,0.10,
821.00,0.10,
822.00,0.12,
823.00,0.14,
824.00,0.15,
825.00,0.13,
826.00,0.15,
827.00,0.13,
828.00,0.07,
829.00,0.08,
830.00,0.09,
831.00,0.04,
832.00,0.06,
833.00,0.08,
834.00,0.04,
835.00,0.05,
836.00,0.06,
837.00,0.04,
838.00,0.06,
839.00,0.08,
840.00,0.04,
841.00,0.05,
842.00,0.06,
843.00,0.03,
844.00,0.04,
845.00,0.08,
846.00,0.06,
847.00,0.07,
848.00,0.11,
849.00,0.10,
850.00,0.08,
851.00,0.09,
852.00,0.08,
853.00,0.06,
854.00,0.06,
855.00,0.06,
856.00,0.06,
857.00,0.07,
858.00,0.08,
859.00,0.08,
860.00,0.08,
861.00,0.08,
862.00,0.09,
863.00,0.07,
864.00,0.07,
865.00,0.07,
866.00,0.07,
867.00,0.06,
868.00,0.09,
869.00,0.09,
870.00,0.09,
871.00,0.10,
872.00,0.09,
873.00,0.07,
874.00,0.09,
875.00,0.07,
876.00,0.05,
877.00,0.08,
878.00,0.07,
879.00,0.07,
880.00,0.08,
881.00,0.08,
882.00,0.07,
883.00,0.07,
884.00,0.06,
885.00,0.06,
886.00,0.07,
887.00,0.07,
888.00,0.07,
889.00,0.08,
890.00,0.08,
891.00,0.06,
892.00,0.07,
893.00,0.06,
894.00,0.05,
895.00,0.05,
896.00,0.06,
897.00,0.05,
898.00,0.05,
899.00,0.05,
900.00,0.05,
901.00,0.04,
902.00,0.03,
903.00,0.03,
904.00,0.03,
905.00,0.04,
906.00,0.05,
907.00,0.05,
908.00,0.05,
909.00,0.05,
910.00,0.05,
911.00,0.05,
912.00,0.05,
913.00,0.04,
914.00,0.03,
915.00,0.03,
916.00,0.03,
917.00,0.02,
918.00,0.03,
919.00,0.03,
920.00,0.02,
921.00,0.03,
922.00,0.03,
923.00,0.02,
924.00,0.04,
925.00,0.04,
926.00,0.03,
927.00,0.05,
928.00,0.05,
929.00,0.03,
930.00,0.04,
931.00,0.04,
932.00,0.02,
933.00,0.02,
934.00,0.03,
935.00,0.02,
936.00,0.03,
937.00,0.03,
938.00,0.02,
939.00,0.01,
940.00,0.01,
941.00,0.00,
942.00,0.01,
943.00,0.00,
944.00,0.02,
945.00,0.01,
946.00,0.02,
947.00,0.03,
948.00,0.02,
949.00,0.02,
950.00,0.03,
951.00,0.02,
952.00,0.02,
953.00,0.03,
954.00,0.03,
955.00,0.02,
956.00,0.02,
957.00,0.01,
958.00,0.01,
959.00,0.01,
960.00,0.01,
961.00,0.01,
962.00,0.02,
963.00,0.02,
964.00,0.01,
965.00,0.02,
966.00,0.02,
967.00,0.01,
968.00,0.02,
969.00,0.02,
970.00,0.02,
971.00,0.03,
972.00,0.03,
973.00,0.03,
974.00,0.04,
975.00,0.03,
976.00,0.03,
977.00,0.04,
978.00,0.03,
979.00,0.04,
980.00,0.05,
981.00,0.05,
982.00,0.05,
983.00,0.05,
984.00,0.05,
985.00,0.05,
986.00,0.05,
987.00,0.05,
988.00,0.06,
989.00,0.05,
990.00,0.05,
991.00,0.05,
992.00,0.05,
993.00,0.04,
994.00,0.05,
995.00,0.04,
996.00,0.04,
997.00,0.05,
998.00,0.03,
999.00,0.03,
1000.00,0.04,
1001.00,0.03,
1002.00,0.04,
1003.00,0.04,
1004.00,0.03,
1005.00,0.03,
1006.00,0.04,
1007.00,0.03,
1008.00,0.04,
1009.00,0.06,
1010.00,0.04,
1011.00,0.04,
1012.00,0.05,
1013.00,0.05,
1014.00,0.05,
1015.00,0.05,
1016.00,0.06,
1017.00,0.04,
1018.00,0.04,
1019.00,0.05,
1020.00,0.04,
1021.00,0.03,
1022.00,0.04,
1023.00,0.04,
1024.00,0.05,
1025.00,0.06,
1026.00,0.07,
1027.00,0.06,
1028.00,0.07,
1029.00,0.06,
1030.00,0.05,
1031.00,0.07,
1032.00,0.05,
1033.00,0.03,
1034.00,0.06,
1035.00,0.04,
1036.00,0.02,
1037.00,0.06,
1038.00,0.03,
1039.00,0.03,
1040.00,0.04,
1041.00,0.02,
1042.00,0.03,
1043.00,0.06,
1044.00,0.06,
1045.00,0.06,
1046.00,0.06,
1047.00,0.03,
1048.00,0.04,
1049.00,0.04,
1050.00,0.04,
1051.00,0.05,
1052.00,0.05,
1053.00,0.02,
1054.00,0.04,
1055.00,0.03,
1056.00,0.03,
1057.00,0.05,
1058.00,0.07,
1059.00,0.06,
1060.00,0.05,
1061.00,0.03,
1062.00,0.05,
1063.00,0.04,
1064.00,0.00,
1065.00,0.06,
1066.00,0.04,
1067.00,-0.00,
1068.00,0.04,
1069.00,0.03,
1070.00,0.02,
1071.00,0.11,
1072.00,0.11,
1073.00,0.05,
1074.00,0.09,
1075.00,0.01,
1076.00,-0.02,
1077.00,0.02,
1078.00,-0.01,
1079.00,-0.01,
1080.00,0.05,
1081.00,-0.03,
1082.00,-0.01,
1083.00,0.04,
1084.00,0.04,
1085.00,0.07,
1086.00,0.11,
1087.00,0.06,
1088.00,0.07,
1089.00,0.06,
1090.00,0.01,
1091.00,-0.02,
1092.00,-0.00,
1093.00,-0.01,
1094.00,0.03,
1095.00,0.05,
1096.00,0.09,
1097.00,0.09,
1098.00,0.13,
1099.00,0.17,
1100.00,0.11,
