Date,2025/05/20,
Time,18:00:00,
Memo,EKO 711,
Sensor,MS-711,
Exposure Time(msec),5000,
Sensor Temp.(deg),24.8,
Power(V),5.9,
Wavelength(nm),Irradiance(W/m2/um),
300.00,0.02,
301.00,0.02,
302.00,0.02,
303.00,0.01,
304.00,0.02,
305.00,0.02,
306.00,0.02,
307.00,0.02,
308.00,0.02,
309.00,0.02,
310.00,0.03,
311.00,0.03,
312.00,0.03,
313.00,0.03,
314.00,0.04,
315.00,0.04,
316.00,0.04,
317.00,0.05,
318.00,0.06,
319.00,0.06,
320.00,0.07,
321.00,0.08,
322.00,0.09,
323.00,0.10,
324.00,0.12,
325.00,0.13,
326.00,0.15,
327.00,0.17,
328.00,0.19,
329.00,0.21,
330.00,0.22,
331.00,0.24,
332.00,0.25,
333.00,0.26,
334.00,0.27,
335.00,0.29,
336.00,0.29,
337.00,0.30,
338.00,0.32,
339.00,0.33,
340.00,0.34,
341.00,0.36,
342.00,0.36,
343.00,0.37,
344.00,0.37,
345.00,0.38,
346.00,0.38,
347.00,0.39,
348.00,0.40,
349.00,0.40,
350.00,0.41,
351.00,0.42,
352.00,0.43,
353.00,0.43,
354.00,0.43,
355.00,0.43,
356.00,0.42,
357.00,0.41,
358.00,0.41,
359.00,0.41,
360.00,0.41,
361.00,0.43,
362.00,0.44,
363.00,0.45,
364.00,0.47,
365.00,0.49,
366.00,0.50,
367.00,0.51,
368.00,0.52,
369.00,0.51,
370.00,0.50,
371.00,0.49,
372.00,0.47,
373.00,0.46,
374.00,0.46,
375.00,0.47,
376.00,0.49,
377.00,0.50,
378.00,0.52,
379.00,0.51,
380.00,0.49,
381.00,0.46,
382.00,0.44,
383.00,0.42,
384.00,0.42,
385.00,0.42,
386.00,0.44,
387.00,0.46,
388.00,0.48,
389.00,0.49,
390.00,0.49,
391.00,0.49,
392.00,0.48,
393.00,0.46,
394.00,0.45,
395.00,0.46,
396.00,0.49,
397.00,0.53,
398.00,0.58,
399.00,0.63,
400.00,0.68,
401.00,0.72,
402.00,0.74,
403.00,0.74,
404.00,0.73,
405.00,0.73,
406.00,0.73,
407.00,0.72,
408.00,0.73,
409.00,0.73,
410.00,0.74,
411.00,0.75,
412.00,0.76,
413.00,0.77,
414.00,0.78,
415.00,0.78,
416.00,0.78,
417.00,0.77,
418.00,0.77,
419.00,0.77,
420.00,0.76,
421.00,0.77,
422.00,0.76,
423.00,0.75,
424.00,0.75,
425.00,0.75,
426.00,0.74,
427.00,0.73,
428.00,0.71,
429.00,0.69,
430.00,0.69,
431.00,0.70,
432.00,0.71,
433.00,0.74,
434.00,0.77,
435.00,0.79,
436.00,0.78,
437.00,0.79,
438.00,0.80,
439.00,0.80,
440.00,0.81,
441.00,0.83,
442.00,0.84,
443.00,0.85,
444.00,0.86,
445.00,0.86,
446.00,0.87,
447.00,0.88,
448.00,0.89,
449.00,0.90,
450.00,0.91,
451.00,0.91,
452.00,0.91,
453.00,0.90,
454.00,0.90,
455.00,0.89,
456.00,0.90,
457.00,0.90,
458.00,0.90,
459.00,0.89,
460.00,0.89,
461.00,0.89,
462.00,0.89,
463.00,0.89,
464.00,0.89,
465.00,0.89,
466.00,0.88,
467.00,0.88,
468.00,0.88,
469.00,0.87,
470.00,0.87,
471.00,0.87,
472.00,0.87,
473.00,0.85,
474.00,0.85,
475.00,0.85,
476.00,0.84,
477.00,0.82,
478.00,0.82,
479.00,0.82,
480.00,0.80,
481.00,0.80,
482.00,0.80,
483.00,0.79,
484.00,0.77,
485.00,0.77,
486.00,0.76,
487.00,0.75,
488.00,0.76,
489.00,0.77,
490.00,0.76,
491.00,0.77,
492.00,0.77,
493.00,0.77,
494.00,0.77,
495.00,0.77,
496.00,0.77,
497.00,0.76,
498.00,0.75,
499.00,0.73,
500.00,0.69,
501.00,0.66,
502.00,0.65,
503.00,0.63,
504.00,0.62,
505.00,0.62,
506.00,0.61,
507.00,0.61,
508.00,0.62,
509.00,0.62,
510.00,0.61,
511.00,0.62,
512.00,0.62,
513.00,0.60,
514.00,0.59,
515.00,0.59,
516.00,0.57,
517.00,0.55,
518.00,0.55,
519.00,0.55,
520.00,0.55,
521.00,0.55,
522.00,0.55,
523.00,0.53,
524.00,0.52,
525.00,0.52,
526.00,0.50,
527.00,0.49,
528.00,0.49,
529.00,0.48,
530.00,0.46,
531.00,0.46,
532.00,0.46,
533.00,0.45,
534.00,0.45,
535.00,0.46,
536.00,0.46,
537.00,0.44,
538.00,0.44,
539.00,0.44,
540.00,0.43,
541.00,0.43,
542.00,0.43,
543.00,0.43,
544.00,0.42,
545.00,0.42,
546.00,0.41,
547.00,0.39,
548.00,0.39,
549.00,0.38,
550.00,0.37,
551.00,0.36,
552.00,0.37,
553.00,0.35,
554.00,0.35,
555.00,0.35,
556.00,0.34,
557.00,0.32,
558.00,0.31,
559.00,0.31,
560.00,0.28,
561.00,0.28,
562.00,0.28,
563.00,0.27,
564.00,0.26,
565.00,0.26,
566.00,0.25,
567.00,0.24,
568.00,0.25,
569.00,0.24,
570.00,0.23,
571.00,0.24,
572.00,0.24,
573.00,0.22,
574.00,0.32,
575.00,0.32,
576.00,0.31,
577.00,0.31,
578.00,0.32,
579.00,0.23,
580.00,0.22,
581.00,0.24,
582.00,0.25,
583.00,0.25,
584.00,0.25,
585.00,0.26,
586.00,0.25,
587.00,0.24,
588.00,0.25,
589.00,0.24,
590.00,0.24,
591.00,0.24,
592.00,0.25,
593.00,0.24,
594.00,0.23,
595.00,0.24,
596.00,0.23,
597.00,0.21,
598.00,0.22,
599.00,0.22,
600.00,0.21,
601.00,0.21,
602.00,0.21,
603.00,0.20,
604.00,0.20,
605.00,0.21,
606.00,0.21,
607.00,0.21,
608.00,0.20,
609.00,0.21,
610.00,0.19,
611.00,0.20,
612.00,0.20,
613.00,0.20,
614.00,0.19,
615.00,0.20,
616.00,0.20,
617.00,0.20,
618.00,0.21,
619.00,0.21,
620.00,0.20,
621.00,0.20,
622.00,0.22,
623.00,0.22,
624.00,0.22,
625.00,0.24,
626.00,0.24,
627.00,0.23,
628.00,0.24,
629.00,0.25,
630.00,0.24,
631.00,0.24,
632.00,0.25,
633.00,0.25,
634.00,0.25,
635.00,0.26,
636.00,0.27,
637.00,0.27,
638.00,0.28,
639.00,0.29,
640.00,0.29,
641.00,0.29,
642.00,0.30,
643.00,0.31,
644.00,0.30,
645.00,0.30,
646.00,0.30,
647.00,0.30,
648.00,0.30,
649.00,0.31,
650.00,0.31,
651.00,0.33,
652.00,0.32,
653.00,0.31,
654.00,0.31,
655.00,0.31,
656.00,0.30,
657.00,0.30,
658.00,0.32,
659.00,0.32,
660.00,0.32,
661.00,0.34,
662.00,0.35,
663.00,0.34,
664.00,0.35,
665.00,0.36,
666.00,0.36,
667.00,0.37,
668.00,0.38,
669.00,0.38,
670.00,0.37,
671.00,0.37,
672.00,0.37,
673.00,0.36,
674.00,0.37,
675.00,0.38,
676.00,0.39,
677.00,0.39,
678.00,0.39,
679.00,0.38,
680.00,0.38,
681.00,0.38,
682.00,0.38,
683.00,0.38,
684.00,0.38,
685.00,0.37,
686.00,0.34,
687.00,0.33,
688.00,0.33,
689.00,0.31,
690.00,0.32,
691.00,0.34,
692.00,0.33,
693.00,0.34,
694.00,0.36,
695.00,0.36,
696.00,0.36,
697.00,0.35,
698.00,0.35,
699.00,0.33,
700.00,0.34,
701.00,0.35,
702.00,0.36,
703.00,0.38,
704.00,0.41,
705.00,0.39,
706.00,0.39,
707.00,0.41,
708.00,0.41,
709.00,0.40,
710.00,0.43,
711.00,0.43,
712.00,0.41,
713.00,0.40,
714.00,0.41,
715.00,0.38,
716.00,0.36,
717.00,0.36,
718.00,0.35,
719.00,0.33,
720.00,0.35,
721.00,0.34,
722.00,0.31,
723.00,0.33,
724.00,0.33,
725.00,0.29,
726.00,0.30,
727.00,0.32,
728.00,0.30,
729.00,0.31,
730.00,0.34,
731.00,0.36,
732.00,0.36,
733.00,0.37,
734.00,0.37,
735.00,0.36,
736.00,0.37,
737.00,0.36,
738.00,0.34,
739.00,0.35,
740.00,0.35,
741.00,0.33,
742.00,0.35,
743.00,0.37,
744.00,0.39,
745.00,0.39,
746.00,0.39,
747.00,0.39,
748.00,0.37,
749.00,0.37,
750.00,0.39,
751.00,0.39,
752.00,0.38,
753.00,0.39,
754.00,0.38,
755.00,0.35,
756.00,0.36,
757.00,0.35,
758.00,0.31,
759.00,0.27,
760.00,0.25,
761.00,0.18,
762.00,0.16,
763.00,0.19,
764.00,0.19,
765.00,0.18,
766.00,0.23,
767.00,0.23,
768.00,0.23,
769.00,0.28,
770.00,0.32,
771.00,0.32,
772.00,0.35,
773.00,0.36,
774.00,0.34,
775.00,0.31,
776.00,0.33,
777.00,0.32,
778.00,0.31,
779.00,0.34,
780.00,0.35,
781.00,0.34,
782.00,0.36,
783.00,0.34,
784.00,0.31,
785.00,0.32,
786.00,0.31,
787.00,0.29,
788.00,0.32,
789.00,0.30,
790.00,0.30,
791.00,0.32,
792.00,0.33,
793.00,0.31,
794.00,0.35,
795.00,0.37,
796.00,0.37,
797.00,0.38,
798.00,0.39,
799.00,0.38,
800.00,0.37,
801.00,0.36,
802.00,0.34,
803.00,0.35,
804.00,0.33,
805.00,0.32,
806.00,0.31,
807.00,0.31,
808.00,0.29,
809.00,0.31,
810.00,0.30,
811.00,0.28,
812.00,0.29,
813.00,0.26,
814.00,0.24,
815.00,0.25,
816.00,0.22,
817.00,0.20,
818.00,0.24,
819.00,0.22,
820.00,0.21,
821.00,0.27,
822.00,0.26,
823.00,0.22,
824.00,0.27,
825.00,0.27,
826.00,0.24,
827.00,0.29,
828.00,0.29,
829.00,0.25,
830.00,0.25,
831.00,0.27,
832.00,0.26,
833.00,0.29,
834.00,0.28,
835.00,0.26,
836.00,0.25,
837.00,0.27,
838.00,0.24,
839.00,0.25,
840.00,0.26,
841.00,0.25,
842.00,0.25,
843.00,0.27,
844.00,0.27,
845.00,0.25,
846.00,0.25,
847.00,0.25,
848.00,0.24,
849.00,0.25,
850.00,0.25,
851.00,0.25,
852.00,0.25,
853.00,0.23,
854.00,0.23,
855.00,0.23,
856.00,0.23,
857.00,0.23,
858.00,0.23,
859.00,0.23,
860.00,0.23,
861.00,0.24,
862.00,0.23,
863.00,0.23,
864.00,0.25,
865.00,0.23,
866.00,0.23,
867.00,0.24,
868.00,0.24,
869.00,0.24,
870.00,0.25,
871.00,0.24,
872.00,0.23,
873.00,0.23,
874.00,0.21,
875.00,0.21,
876.00,0.22,
877.00,0.22,
878.00,0.21,
879.00,0.22,
880.00,0.21,
881.00,0.21,
882.00,0.23,
883.00,0.24,
884.00,0.23,
885.00,0.24,
886.00,0.23,
887.00,0.23,
888.00,0.23,
889.00,0.22,
890.00,0.20,
891.00,0.20,
892.00,0.19,
893.00,0.17,
894.00,0.18,
895.00,0.17,
896.00,0.15,
897.00,0.16,
898.00,0.15,
899.00,0.14,
900.00,0.14,
901.00,0.13,
902.00,0.13,
903.00,0.13,
904.00,0.13,
905.00,0.13,
906.00,0.15,
907.00,0.14,
908.00,0.14,
909.00,0.15,
910.00,0.14,
911.00,0.12,
912.00,0.12,
913.00,0.12,
914.00,0.11,
915.00,0.12,
916.00,0.12,
917.00,0.12,
918.00,0.13,
919.00,0.13,
920.00,0.13,
921.00,0.13,
922.00,0.13,
923.00,0.12,
924.00,0.12,
925.00,0.11,
926.00,0.10,
927.00,0.10,
928.00,0.08,
929.00,0.08,
930.00,0.07,
931.00,0.06,
932.00,0.05,
933.00,0.05,
934.00,0.03,
935.00,0.03,
936.00,0.03,
937.00,0.03,
938.00,0.04,
939.00,0.06,
940.00,0.05,
941.00,0.04,
942.00,0.05,
943.00,0.03,
944.00,0.02,
945.00,0.03,
946.00,0.03,
947.00,0.03,
948.00,0.04,
949.00,0.04,
950.00,0.05,
951.00,0.05,
952.00,0.04,
953.00,0.05,
954.00,0.04,
955.00,0.04,
956.00,0.05,
957.00,0.05,
958.00,0.05,
959.00,0.06,
960.00,0.07,
961.00,0.07,
962.00,0.07,
963.00,0.08,
964.00,0.07,
965.00,0.08,
966.00,0.08,
967.00,0.08,
968.00,0.08,
969.00,0.09,
970.00,0.09,
971.00,0.10,
972.00,0.10,
973.00,0.09,
974.00,0.09,
975.00,0.09,
976.00,0.08,
977.00,0.09,
978.00,0.11,
979.00,0.10,
980.00,0.11,
981.00,0.11,
982.00,0.10,
983.00,0.11,
984.00,0.11,
985.00,0.10,
986.00,0.10,
987.00,0.11,
988.00,0.11,
989.00,0.12,
990.00,0.13,
991.00,0.14,
992.00,0.13,
993.00,0.13,
994.00,0.13,
995.00,0.13,
996.00,0.12,
997.00,0.13,
998.00,0.12,
999.00,0.10,
1000.00,0.11,
1001.00,0.11,
1002.00,0.11,
1003.00,0.11,
1004.00,0.12,
1005.00,0.11,
1006.00,0.12,
1007.00,0.12,
1008.00,0.11,
1009.00,0.11,
1010.00,0.11,
1011.00,0.09,
1012.00,0.10,
1013.00,0.10,
1014.00,0.10,
1015.00,0.11,
1016.00,0.11,
1017.00,0.10,
1018.00,0.11,
1019.00,0.12,
1020.00,0.12,
1021.00,0.12,
1022.00,0.11,
1023.00,0.11,
1024.00,0.12,
1025.00,0.10,
1026.00,0.09,
1027.00,0.11,
1028.00,0.09,
1029.00,0.08,
1030.00,0.09,
1031.00,0.09,
1032.00,0.09,
1033.00,0.11,
1034.00,0.10,
1035.00,0.09,
1036.00,0.07,
1037.00,0.06,
1038.00,0.06,
1039.00,0.06,
1040.00,0.07,
1041.00,0.09,
1042.00,0.10,
1043.00,0.09,
1044.00,0.12,
1045.00,0.13,
1046.00,0.11,
1047.00,0.11,
1048.00,0.12,
1049.00,0.10,
1050.00,0.12,
1051.00,0.11,
1052.00,0.07,
1053.00,0.08,
1054.00,0.09,
1055.00,0.06,
1056.00,0.10,
1057.00,0.10,
1058.00,0.09,
1059.00,0.10,
1060.00,0.09,
1061.00,0.09,
1062.00,0.14,
1063.00,0.11,
1064.00,0.10,
1065.00,0.09,
1066.00,0.02,
1067.00,0.02,
1068.00,0.04,
1069.00,0.01,
1070.00,0.05,
1071.00,0.06,
1072.00,0.06,
1073.00,0.11,
1074.00,0.13,
1075.00,0.10,
1076.00,0.10,
1077.00,0.08,
1078.00,0.03,
1079.00,0.04,
1080.00,0.08,
1081.00,0.10,
1082.00,0.11,
1083.00,0.11,
1084.00,0.11,
1085.00,0.12,
1086.00,0.14,
1087.00,0.11,
1088.00,0.12,
1089.00,0.12,
1090.00,0.15,
1091.00,0.14,
1092.00,0.12,
1093.00,0.15,
1094.00,0.07,
1095.00,-0.02,
1096.00,-0.00,
1097.00,0.06,
1098.00,0.01,
1099.00,0.11,
1100.00,0.10,
